sep=,
Measurement Mode:,Extended (Quaternion)
StartTime:,Fri, 12 Jun 2020 04:22:28 GMT
© Xsens Technologies B. V. 2005-2020

Timestamp,Address,Quaternion_w,Quaternion_x,Quaternion_y,Quaternion_z,FreeAcc_x,FreeAcc_y,FreeAcc_z,Status,ClipCountAcc,ClipCountGyr
339398117167.2515,d4:ca:6e:f1:82:8c,0.736890971660614,0.28276461362838745,-0.4043036103248596,0.4621412456035614,-0.011357364244759083,0.010218565352261066,0.16956043243408203,0,0,0
339398133837.5849,d4:ca:6e:f1:82:8c,0.7368841767311096,0.28291556239128113,-0.4042975902557373,0.4620649814605713,-0.0037791570648550987,0.012546229176223278,0.1614856719970703,0,0,0
339398154264.8222,d4:ca:6e:f1:85:58,0.8218052983283997,-0.1254824548959732,-0.4719880223274231,-0.293457955121994,0.0027585967909544706,0.012755884788930416,0.07249259948730469,0,0,0
339398170490.6,d4:ca:6e:f1:85:58,0.8217982649803162,-0.12539272010326385,-0.4719865918159485,-0.29351839423179626,-0.000662045378703624,0.01632203347980976,0.0829324722290039,0,0,0
339398150507.9183,d4:ca:6e:f1:82:8c,0.7368676662445068,0.2830550968647003,-0.4043116569519043,0.46199360489845276,-0.0030044610612094402,0.004736910108476877,0.17642498016357422,0,0,0
339398167178.25165,d4:ca:6e:f1:82:8c,0.7368555665016174,0.28314563632011414,-0.4043274521827698,0.46194344758987427,0.0032880990765988827,0.011003542691469193,0.16460609436035156,0,0,0
339398187160.93335,d4:ca:6e:f1:85:58,0.8218021988868713,-0.12530550360679626,-0.47196871042251587,-0.2935734987258911,0.009620444849133492,0.011109041050076485,0.08299922943115234,0,0,0
339398183848.585,d4:ca:6e:f1:82:8c,0.7368382215499878,0.28321006894111633,-0.40435296297073364,0.46190932393074036,-0.005158232059329748,0.006176780443638563,0.1688079833984375,0,0,0
339398200518.9184,d4:ca:6e:f1:82:8c,0.7368242144584656,0.2832574248313904,-0.404367059469223,0.46189042925834656,-0.002636335324496031,-0.013357358053326607,0.16520118713378906,0,0,0
339398203831.2667,d4:ca:6e:f1:85:58,0.8217974901199341,-0.12522777915000916,-0.4719710946083069,-0.2936156988143921,0.005580224562436342,0.0005193323595449328,0.07143497467041016,0,0,0
339398220501.6001,d4:ca:6e:f1:85:58,0.8217926025390625,-0.12518492341041565,-0.47197791934013367,-0.2936367988586426,-0.0011247171787545085,0.0034583040978759527,0.0794992446899414,0,0,0
339398217189.2518,d4:ca:6e:f1:82:8c,0.7368260622024536,0.2832721471786499,-0.4043554663658142,0.46188846230506897,-0.005462656728923321,-0.002009381540119648,0.15648651123046875,0,0,0
339398233859.58514,d4:ca:6e:f1:82:8c,0.7368270754814148,0.28329113125801086,-0.40433943271636963,0.46188926696777344,0.001252790098078549,0.00877288356423378,0.18144512176513672,0,0,0
339398237171.9335,d4:ca:6e:f1:85:58,0.8217857480049133,-0.1251557618379593,-0.471985787153244,-0.29365572333335876,0.005005348939448595,0.0005136327818036079,0.07398414611816406,0,0,0
339398253842.26685,d4:ca:6e:f1:85:58,0.8217837810516357,-0.12514156103134155,-0.47198551893234253,-0.29366791248321533,0.006130066234618425,0.012092051096260548,0.07936382293701172,0,0,0
339398270512.6002,d4:ca:6e:f1:85:58,0.8217791318893433,-0.12511228024959564,-0.47199103236198425,-0.2936844527721405,0.0004148400330450386,-0.0051268283277750015,0.08084774017333984,0,0,0
339398287182.9336,d4:ca:6e:f1:85:58,0.8217800855636597,-0.1250901222229004,-0.47198808193206787,-0.29369592666625977,0.0050120544619858265,0.007906659506261349,0.0739908218383789,0,0,0
339398303853.26697,d4:ca:6e:f1:85:58,0.8217732906341553,-0.12507161498069763,-0.4719943404197693,-0.29371264576911926,0.0011783603113144636,-0.0016070581041276455,0.07846832275390625,0,0,0
339398320294,d4:ca:6e:f1:85:58,0.8217632174491882,-0.12506328523159027,-0.47200581431388855,-0.29372599720954895,0.009415706619620323,0.01016726903617382,0.07612323760986328,0,0,0
339398250529.9185,d4:ca:6e:f1:82:8c,0.7368313074111938,0.2832968533039093,-0.40434184670448303,0.46187692880630493,-0.0026014673057943583,0.0065046739764511585,0.17427539825439453,0,0,0
339398267200.2519,d4:ca:6e:f1:82:8c,0.736830472946167,0.28330153226852417,-0.40435051918029785,0.4618677496910095,0.0046799140982329845,0.000013857803423888981,0.17244720458984375,0,0,0
339398336964.3334,d4:ca:6e:f1:85:58,0.8217517733573914,-0.1250593662261963,-0.47200387716293335,-0.29376280307769775,0.00985021609812975,0.00042735677561722696,0.08672046661376953,0,0,0
339398283870.58527,d4:ca:6e:f1:82:8c,0.7368332147598267,0.2833062708377838,-0.4043428301811218,0.46186715364456177,-0.0015339694218710065,0.0086025670170784,0.1623382568359375,0,0,0
339398300540.91864,d4:ca:6e:f1:82:8c,0.7368188500404358,0.2833229899406433,-0.4043440520763397,0.4618786871433258,0.0008750532288104296,0.01219263207167387,0.16078853607177734,0,0,0
339398353634.66675,d4:ca:6e:f1:85:58,0.8217592835426331,-0.12502390146255493,-0.4720155596733093,-0.2937380373477936,0.010322722606360912,-0.001328896265476942,0.08766746520996094,0,0,0
339398370305.0001,d4:ca:6e:f1:85:58,0.8218101859092712,-0.12490635365247726,-0.4720577299594879,-0.29357776045799255,0.002666062442585826,0.01670055277645588,0.08009815216064453,0,0,0
339398317211.252,d4:ca:6e:f1:82:8c,0.7368195652961731,0.28333279490470886,-0.40433958172798157,0.46187564730644226,0.007675211410969496,0.009082225151360035,0.17097854614257812,0,0,0
339398333881.5854,d4:ca:6e:f1:82:8c,0.7368173599243164,0.28332772850990295,-0.40435168147087097,0.4618716835975647,0.004797258414328098,0.0038547043222934008,0.1777029037475586,0,0,0
339398386975.3335,d4:ca:6e:f1:85:58,0.8217272758483887,-0.1250179260969162,-0.47203516960144043,-0.2937987148761749,0.018619075417518616,0.00423054164275527,0.0780954360961914,0,0,0
339398403645.6669,d4:ca:6e:f1:85:58,0.8216242790222168,-0.1251562535762787,-0.47200751304626465,-0.2940724194049835,0.010977168567478657,-0.005640125833451748,0.07750701904296875,0,0,0
339398350551.91876,d4:ca:6e:f1:82:8c,0.7367023825645447,0.2834259569644928,-0.4042971432209015,0.46204254031181335,-0.010740691795945168,0.008936047554016113,0.17226409912109375,0,0,0
339398367222.25214,d4:ca:6e:f1:82:8c,0.7366337776184082,0.2834932804107666,-0.4042583107948303,0.4621444046497345,0.003610628191381693,0.006454607006162405,0.1632699966430664,0,0,0
339398420316.00024,d4:ca:6e:f1:85:58,0.8220086097717285,-0.12452804297208786,-0.47218015789985657,-0.29298561811447144,-0.004333916120231152,-0.0055311634205281734,0.07709121704101562,0,0,0
339398436986.3336,d4:ca:6e:f1:85:58,0.8218172788619995,-0.12482219934463501,-0.47210320830345154,-0.2935204803943634,0.002254798775538802,-0.008333680219948292,0.09114360809326172,0,0,0
339398383892.5855,d4:ca:6e:f1:82:8c,0.7365177273750305,0.28359606862068176,-0.40418514609336853,0.4623303711414337,-0.00010974486212944612,0.006823403295129538,0.16620635986328125,0,0,0
339398400562.9189,d4:ca:6e:f1:82:8c,0.7353320717811584,0.28462928533554077,-0.4034661054611206,0.4642069637775421,-0.007442757952958345,-0.0029850155115127563,0.1657257080078125,0,0,0
339398453656.667,d4:ca:6e:f1:85:58,0.8217170238494873,-0.12498027086257935,-0.4720635712146759,-0.29379788041114807,0.00783904641866684,-0.0023967293091118336,0.06720924377441406,0,0,0
339398470289.199,d4:ca:6e:f1:85:58,0.8215692639350891,-0.12520645558834076,-0.4720149636268616,-0.29419267177581787,0.01881040260195732,-0.013654070906341076,0.08035945892333984,0,0,0
339398417233.25226,d4:ca:6e:f1:82:8c,0.7337868809700012,0.2859751284122467,-0.40252014994621277,0.46663978695869446,-0.0015491682570427656,0.0013542650267481804,0.1736927032470703,0,0,0
339398433903.58563,d4:ca:6e:f1:82:8c,0.7341329455375671,0.2856835126876831,-0.40273338556289673,0.46608966588974,0.005269764922559261,-0.0015581088373437524,0.17121410369873047,0,0,0
339398486959.53235,d4:ca:6e:f1:85:58,0.8213171362876892,-0.12560176849365234,-0.4719114899635315,-0.29489338397979736,0.01062893494963646,0.002611301839351654,0.06403064727783203,0,0,0
339398450573.919,d4:ca:6e:f1:82:8c,0.7341901063919067,0.28564298152923584,-0.4027634561061859,0.46599847078323364,-0.012790082022547722,-0.0049414243549108505,0.16660308837890625,0,0,0
339398467244.2524,d4:ca:6e:f1:82:8c,0.7343895435333252,0.28547510504722595,-0.40288037061691284,0.4656860828399658,0.009589822962880135,0.0021421480923891068,0.17678356170654297,0,0,0
339398503629.8657,d4:ca:6e:f1:85:58,0.8213152885437012,-0.12559378147125244,-0.4719226062297821,-0.29488399624824524,0.0022539047058671713,0.007039875723421574,0.0803384780883789,0,0,0
339398520300.1991,d4:ca:6e:f1:85:58,0.8214478492736816,-0.12536829710006714,-0.4719933271408081,-0.2944970726966858,-0.013742917217314243,-0.0006489698425866663,0.08843708038330078,0,0,0
339398483914.58575,d4:ca:6e:f1:82:8c,0.7328398823738098,0.2868229150772095,-0.40192604064941406,0.4681173264980316,-0.00038466579280793667,0.001260613091289997,0.16529560089111328,0,0,0
339398500584.9191,d4:ca:6e:f1:82:8c,0.7328834533691406,0.2867870628833771,-0.40195995569229126,0.4680420160293579,0.0037876504939049482,-0.004587156232446432,0.16573429107666016,0,0,0
339398536970.5325,d4:ca:6e:f1:85:58,0.8212563991546631,-0.12567012012004852,-0.47192007303237915,-0.29501965641975403,-0.004101015627384186,-0.003840511431917548,0.06890296936035156,0,0,0
339398553640.86584,d4:ca:6e:f1:85:58,0.8209229707717896,-0.1262020766735077,-0.47178396582603455,-0.29593682289123535,-0.00016316445544362068,0.00719488225877285,0.08269214630126953,0,0,0
339398517255.2525,d4:ca:6e:f1:82:8c,0.7327731251716614,0.2868976593017578,-0.4018917381763458,0.46820563077926636,0.016927530989050865,0.004721934907138348,0.17020606994628906,0,0,0
339398533925.5859,d4:ca:6e:f1:82:8c,0.7325400114059448,0.28709638118743896,-0.40176206827163696,0.4685596823692322,-0.006873023230582476,-0.010997731238603592,0.16089820861816406,0,0,0
339398570311.1992,d4:ca:6e:f1:85:58,0.8209430575370789,-0.126161590218544,-0.47180965542793274,-0.2958572804927826,0.015871208161115646,-0.01047169417142868,0.08279991149902344,0,0,0
339398586981.5326,d4:ca:6e:f1:85:58,0.820993185043335,-0.1260717362165451,-0.4718356132507324,-0.2957150340080261,0.006311558652669191,0.0006907667848281562,0.0768117904663086,0,0,0
339398550595.91925,d4:ca:6e:f1:82:8c,0.7323317527770996,0.287282258272171,-0.40162354707717896,0.46888992190361023,0.005216121673583984,0.010319369845092297,0.16480636596679688,0,0,0
339398567266.2526,d4:ca:6e:f1:82:8c,0.7333126664161682,0.28644126653671265,-0.4022179841995239,0.46735915541648865,-0.0036115222610533237,-0.006242046132683754,0.1707906723022461,0,0,0
339398603651.86597,d4:ca:6e:f1:85:58,0.8210393190383911,-0.12598729133605957,-0.4718681871891022,-0.29557090997695923,-0.0065140617080032825,0.004024574067443609,0.0812997817993164,0,0,0
339398620190,d4:ca:6e:f1:85:58,0.8211077451705933,-0.1258769929409027,-0.4719042479991913,-0.2953700125217438,0.006817592307925224,-0.004769989755004644,0.0822153091430664,0,0,0
339398583936.586,d4:ca:6e:f1:82:8c,0.7332940697669983,0.2864556610584259,-0.4022170305252075,0.4673803448677063,0.004152647219598293,-0.011849315837025642,0.16990375518798828,0,0,0
339398600606.9194,d4:ca:6e:f1:82:8c,0.733426570892334,0.2863408923149109,-0.4022989273071289,0.46717241406440735,0.007025459315627813,-0.00954579096287489,0.1833486557006836,0,0,0
339398636860.3334,d4:ca:6e:f1:85:58,0.8210731148719788,-0.1259295493364334,-0.47188645601272583,-0.29547229409217834,-0.009941856376826763,-0.0008180573931895196,0.0810251235961914,0,0,0
339398617277.25275,d4:ca:6e:f1:82:8c,0.7330217361450195,0.28669390082359314,-0.40204694867134094,0.46780794858932495,0.0029758515302091837,-0.0027313283644616604,0.15834426879882812,0,0,0
339398633947.5861,d4:ca:6e:f1:82:8c,0.732879102230072,0.28681060671806335,-0.40196311473846436,0.46803146600723267,0.009862062521278858,0.00649863900616765,0.15590190887451172,0,0,0
339398653530.66675,d4:ca:6e:f1:85:58,0.8210261464118958,-0.1259891837835312,-0.471881628036499,-0.2955849766731262,-0.003921758383512497,0.010795005597174168,0.07371902465820312,0,0,0
339398670201.0001,d4:ca:6e:f1:85:58,0.8210546374320984,-0.1259448379278183,-0.4718942642211914,-0.29550474882125854,-0.005780939012765884,-0.0012227275874465704,0.07319450378417969,0,0,0
339398650617.9195,d4:ca:6e:f1:82:8c,0.7329419255256653,0.2867544889450073,-0.4020010530948639,0.46793508529663086,-0.004477411508560181,-0.013693073764443398,0.16873455047607422,0,0,0
339398686871.3335,d4:ca:6e:f1:85:58,0.821049690246582,-0.12595126032829285,-0.4719071090221405,-0.29549530148506165,-0.009965548291802406,-0.006357490550726652,0.07766437530517578,0,0,0
339398703541.6669,d4:ca:6e:f1:85:58,0.8210467100143433,-0.12595254182815552,-0.47190919518470764,-0.29549989104270935,-0.00508000236004591,-0.0024736179038882256,0.07143592834472656,0,0,0
339398667288.25287,d4:ca:6e:f1:82:8c,0.7325934767723083,0.2870509624481201,-0.40179261565208435,0.46847769618034363,-0.005757917184382677,0.007035070098936558,0.16636371612548828,0,0,0
339398683958.58624,d4:ca:6e:f1:82:8c,0.7329010963439941,0.28678587079048157,-0.40198037028312683,0.46799755096435547,0.008293000981211662,0.0015636966563761234,0.15053939819335938,0,0,0
339398720212.00024,d4:ca:6e:f1:85:58,0.8209656476974487,-0.1260693073272705,-0.47188568115234375,-0.29571253061294556,0.006396493874490261,-0.008207730948925018,0.07697772979736328,0,0,0
339398736882.3336,d4:ca:6e:f1:85:58,0.8208073377609253,-0.12631966173648834,-0.4718228578567505,-0.2961450517177582,0.0010835907887667418,-0.008022662252187729,0.0731801986694336,0,0,0
339398700628.9196,d4:ca:6e:f1:82:8c,0.7334546446800232,0.28631535172462463,-0.4023164212703705,0.46712881326675415,0.00807351153343916,-0.00023379454796668142,0.17552757263183594,0,0,0
339398717299.253,d4:ca:6e:f1:82:8c,0.7340698838233948,0.28578823804855347,-0.4026971459388733,0.4661561846733093,0.004586262162774801,0.006487910635769367,0.17362022399902344,0,0,0
339398753552.667,d4:ca:6e:f1:85:58,0.82061368227005,-0.12662898004055023,-0.47174254059791565,-0.2966770529747009,0.011421958915889263,-0.002669750479981303,0.07623863220214844,0,0,0
339398770223.00037,d4:ca:6e:f1:85:58,0.8206256031990051,-0.1266026347875595,-0.4717523157596588,-0.2966398596763611,0.011939167976379395,0.003562126075848937,0.08694744110107422,0,0,0
339398733969.58636,d4:ca:6e:f1:82:8c,0.7344321012496948,0.28547149896621704,-0.4029247462749481,0.4655827581882477,0.00264192302711308,-0.00568639300763607,0.15650272369384766,0,0,0
339398786893.33374,d4:ca:6e:f1:85:58,0.8206318616867065,-0.12657789885997772,-0.4717680513858795,-0.2966080605983734,0.002654886804521084,0.010793440975248814,0.0724344253540039,0,0,0
339398750639.91974,d4:ca:6e:f1:82:8c,0.7344130873680115,0.28548598289489746,-0.4029119610786438,0.4656149744987488,0.0023967293091118336,-0.003366552060469985,0.1718893051147461,0,0,0
339398767310.2531,d4:ca:6e:f1:82:8c,0.7346752882003784,0.2852466404438019,-0.4030708372592926,0.46521034836769104,0.009329430758953094,-0.0038032964803278446,0.1708507537841797,0,0,0
339398803563.6671,d4:ca:6e:f1:85:58,0.8205340504646301,-0.1267278641462326,-0.47172901034355164,-0.2968769073486328,-0.012006222270429134,-0.0019098063930869102,0.0782623291015625,0,0,0
339398820234.0005,d4:ca:6e:f1:85:58,0.8204759955406189,-0.12681354582309723,-0.4717005491256714,-0.2970457077026367,-0.008089381270110607,-0.008237681351602077,0.07231712341308594,0,0,0
339398783980.5865,d4:ca:6e:f1:82:8c,0.7348003387451172,0.28515416383743286,-0.4031354486942291,0.46501344442367554,-0.007422194816172123,-0.005693545565009117,0.17239952087402344,0,0,0
339398800650.91986,d4:ca:6e:f1:82:8c,0.7349106073379517,0.285055547952652,-0.40320366621017456,0.4648404121398926,0.00047004775842651725,-0.0004110403242520988,0.1693105697631836,0,0,0
339398836904.33386,d4:ca:6e:f1:85:58,0.8205327391624451,-0.12671932578086853,-0.4717411696910858,-0.2968646287918091,0.0020925283897668123,-0.011145585216581821,0.07761573791503906,0,0,0
339398853574.66724,d4:ca:6e:f1:85:58,0.8204314708709717,-0.12688077986240387,-0.47169771790504456,-0.2971447706222534,-0.00018328063015360385,0.009008466266095638,0.07860565185546875,0,0,0
339398817321.25323,d4:ca:6e:f1:82:8c,0.7346349954605103,0.2852976620197296,-0.40304243564605713,0.4652670621871948,-0.010358260944485664,-0.0010306182084605098,0.17381858825683594,0,0,0
339398833991.5866,d4:ca:6e:f1:82:8c,0.7344933748245239,0.2854306995868683,-0.4029512107372284,0.46548816561698914,0.008689066395163536,0.0016077286563813686,0.17762470245361328,0,0,0
339398870245.0006,d4:ca:6e:f1:85:58,0.8203806281089783,-0.12696154415607452,-0.4716813862323761,-0.2972761392593384,0.005466233007609844,-0.0014454582706093788,0.07999801635742188,0,0,0
339398886915.334,d4:ca:6e:f1:85:58,0.8203994035720825,-0.12691937386989594,-0.47169679403305054,-0.2972179055213928,0.019157743081450462,-0.006581339053809643,0.09174823760986328,0,0,0
339398850661.92,d4:ca:6e:f1:82:8c,0.7347373962402344,0.28522059321403503,-0.4030933678150177,0.4651084840297699,0.008176551200449467,-0.0034897078294306993,0.16676902770996094,0,0,0
339398867332.25336,d4:ca:6e:f1:82:8c,0.7350212335586548,0.2849712073802948,-0.4032606780529022,0.46466773748397827,0.00457732193171978,-0.014962851069867611,0.15771961212158203,0,0,0
339398903585.66736,d4:ca:6e:f1:85:58,0.8204767107963562,-0.12679634988307953,-0.4717276096343994,-0.2970081567764282,0.0047947997227311134,-0.003791115013882518,0.07926750183105469,0,0,0
339398920256.00073,d4:ca:6e:f1:85:58,0.8202840685844421,-0.1271069347858429,-0.47165152430534363,-0.29752790927886963,-0.0031336515676230192,0.0025772161316126585,0.07442951202392578,0,0,0
339398884002.58673,d4:ca:6e:f1:82:8c,0.7350849509239197,0.2849188446998596,-0.40330085158348083,0.4645640254020691,-0.005451257340610027,-0.0001312021049670875,0.16922283172607422,0,0,0
339398900672.9201,d4:ca:6e:f1:82:8c,0.7350532412528992,0.2849447727203369,-0.4032895863056183,0.4646082818508148,-0.0053354776464402676,0.003356941044330597,0.17393970489501953,0,0,0
339398936926.3341,d4:ca:6e:f1:85:58,0.82033771276474,-0.12702512741088867,-0.47166407108306885,-0.29739511013031006,0.005634314380586147,-0.002535642823204398,0.08606719970703125,0,0,0
339398917343.2535,d4:ca:6e:f1:82:8c,0.7348025441169739,0.285160094499588,-0.40313655138015747,0.46500536799430847,-0.011716325767338276,0.004417510237544775,0.16774272918701172,0,0,0
339398953596.6675,d4:ca:6e:f1:85:58,0.8204135298728943,-0.12690763175487518,-0.4716865122318268,-0.29720020294189453,0.0036446021404117346,-0.002353926654905081,0.09159374237060547,0,0,0
339398970267.00085,d4:ca:6e:f1:85:58,0.820196270942688,-0.12724313139915466,-0.47159647941589355,-0.2977987229824066,-0.0007979412330314517,0.0027619495522230864,0.07846641540527344,0,0,0
339398934013.58685,d4:ca:6e:f1:82:8c,0.7347525954246521,0.2852056324481964,-0.40309593081474304,0.46509164571762085,-0.01021230686455965,-0.0053200554102659225,0.1732797622680664,0,0,0
339398950683.9202,d4:ca:6e:f1:82:8c,0.7347920536994934,0.28517699241638184,-0.4031173288822174,0.46502819657325745,0.009503547102212906,-0.008068147115409374,0.1696319580078125,0,0,0
339398986937.3342,d4:ca:6e:f1:85:58,0.8200783729553223,-0.12742899358272552,-0.4715486764907837,-0.29811981320381165,-0.0094063188880682,0.012640998698771,0.08260154724121094,0,0,0
339399003607.6676,d4:ca:6e:f1:85:58,0.82021164894104,-0.1272202432155609,-0.4715951681137085,-0.29776808619499207,-0.012955257669091225,0.002709759399294853,0.08089637756347656,0,0,0
339398967354.2536,d4:ca:6e:f1:82:8c,0.7342727184295654,0.28563156723976135,-0.4027891159057617,0.4658530354499817,0.007730195764452219,-0.0013486772077158093,0.1761646270751953,0,0,0
339398984024.587,d4:ca:6e:f1:82:8c,0.7344926595687866,0.28545036911964417,-0.4029304087162018,0.4654952883720398,0.0022378116846084595,-0.005344865377992392,0.16885757446289062,0,0,0
339399020278.001,d4:ca:6e:f1:85:58,0.8202294111251831,-0.12719279527664185,-0.4716101288795471,-0.2977072298526764,-0.0014756325399503112,0.0017282022163271904,0.07378673553466797,0,0,0
339399036948.33435,d4:ca:6e:f1:85:58,0.8203822374343872,-0.12695719301700592,-0.4716692268848419,-0.297292560338974,-0.002682602498680353,-0.0035809010732918978,0.078582763671875,0,0,0
339399000694.92035,d4:ca:6e:f1:82:8c,0.7343100905418396,0.28559863567352295,-0.40282827615737915,0.4657805562019348,0.005016077775508165,0.00011510917101986706,0.16208839416503906,0,0,0
339399017365.2537,d4:ca:6e:f1:82:8c,0.7340730428695679,0.2858075201511383,-0.40267881751060486,0.46615520119667053,0.013482748530805111,-0.013381720520555973,0.1729593276977539,0,0,0
339399053618.6677,d4:ca:6e:f1:85:58,0.8203737139701843,-0.12696319818496704,-0.47166940569877625,-0.29731354117393494,0.002248540287837386,-0.0041999202221632,0.08197212219238281,0,0,0
339399070185.699,d4:ca:6e:f1:85:58,0.8202972412109375,-0.1270766258239746,-0.4716416299343109,-0.29752039909362793,-0.011090265586972237,-0.004762167111039162,0.07434654235839844,0,0,0
339399034035.5871,d4:ca:6e:f1:82:8c,0.7329934239387512,0.2867361009120941,-0.40202590823173523,0.4678441882133484,-0.00255676475353539,-0.012078640051186085,0.16754913330078125,0,0,0
339399050705.9205,d4:ca:6e:f1:82:8c,0.7330752611160278,0.28666242957115173,-0.4020754098892212,0.4677186608314514,0.0008515843655914068,0.0023363810032606125,0.17300033569335938,0,0,0
339399086856.03235,d4:ca:6e:f1:85:58,0.8201438784599304,-0.12731081247329712,-0.47157174348831177,-0.2979529798030853,-0.008110838010907173,-0.0093665337190032,0.07813167572021484,0,0,0
339399067376.25385,d4:ca:6e:f1:82:8c,0.7321944236755371,0.28741851449012756,-0.40153542160987854,0.46909627318382263,-0.0016247156308963895,-0.004793012049049139,0.1788015365600586,0,0,0
339399084046.5872,d4:ca:6e:f1:82:8c,0.7323271036148071,0.2873053252696991,-0.4016193747520447,0.46888670325279236,-0.009709179401397705,-0.010545117780566216,0.1699533462524414,0,0,0
339399103526.3657,d4:ca:6e:f1:85:58,0.8202342391014099,-0.1271641105413437,-0.4716034233570099,-0.29771676659584045,0.009151961654424667,-0.0036383438855409622,0.0845489501953125,0,0,0
339399120196.6991,d4:ca:6e:f1:85:58,0.8202230334281921,-0.12716837227344513,-0.4716103971004486,-0.2977350950241089,-0.000576216378249228,0.0010265950113534927,0.07761669158935547,0,0,0
339399100716.9206,d4:ca:6e:f1:82:8c,0.7325393557548523,0.2871301770210266,-0.40174388885498047,0.46855542063713074,0.0015033481176942587,-0.005216121673583984,0.1737079620361328,0,0,0
339399117387.25397,d4:ca:6e:f1:82:8c,0.7325314283370972,0.28714051842689514,-0.40173614025115967,0.468568354845047,0.003946791868656874,0.001930704922415316,0.16605472564697266,0,0,0
339399136867.0325,d4:ca:6e:f1:85:58,0.8201920390129089,-0.12721924483776093,-0.4715903699398041,-0.29783037304878235,0.0011890889145433903,0.007607710547745228,0.09677600860595703,0,0,0
339399153537.36584,d4:ca:6e:f1:85:58,0.8201636672019958,-0.12725681066513062,-0.4715924859046936,-0.2978893220424652,-0.017487207427620888,-0.0011212527751922607,0.08220958709716797,0,0,0
339399134057.58734,d4:ca:6e:f1:82:8c,0.7324603796005249,0.28720301389694214,-0.4016880989074707,0.4686821699142456,-0.005976065993309021,-0.0140725988894701,0.17435264587402344,0,0,0
339399150727.9207,d4:ca:6e:f1:82:8c,0.7320775985717773,0.28752779960632324,-0.4014570713043213,0.46927860379219055,0.008628047071397305,0.003720373148098588,0.17113304138183594,0,0,0
339399170207.6992,d4:ca:6e:f1:85:58,0.8201383352279663,-0.12729863822460175,-0.4715847969055176,-0.2979530394077301,-0.0014559633564203978,0.0029769691172987223,0.08011531829833984,0,0,0
339399186878.0326,d4:ca:6e:f1:85:58,0.819986879825592,-0.12753823399543762,-0.47151896357536316,-0.29837116599082947,0.012668713927268982,0.001620245398953557,0.09040546417236328,0,0,0
339399167398.2541,d4:ca:6e:f1:82:8c,0.7319614887237549,0.28762948513031006,-0.40138739347457886,0.4694572389125824,0.010106808505952358,-0.00680038146674633,0.17110729217529297,0,0,0
339399184068.58746,d4:ca:6e:f1:82:8c,0.7320156693458557,0.28758084774017334,-0.4014357328414917,0.46936097741127014,0.0058088782243430614,-0.0011814894387498498,0.16713619232177734,0,0,0
339399203548.36597,d4:ca:6e:f1:85:58,0.8198915123939514,-0.1276836097240448,-0.4714807868003845,-0.2986313998699188,0.0015829188050702214,-0.011927992105484009,0.08640193939208984,0,0,0
339399220218.69934,d4:ca:6e:f1:85:58,0.8198624849319458,-0.12772004306316376,-0.47147125005722046,-0.29871082305908203,-0.0070679266937077045,-0.003350235754624009,0.07768440246582031,0,0,0
339399200738.92084,d4:ca:6e:f1:82:8c,0.7319786548614502,0.28761059045791626,-0.4014090299606323,0.4694232940673828,-0.0059724897146224976,0.00044277915731072426,0.1762256622314453,0,0,0
339399217409.2542,d4:ca:6e:f1:82:8c,0.732035219669342,0.2875588834285736,-0.40143871307373047,0.4693414568901062,-0.0055862595327198505,-0.000178139831405133,0.16214942932128906,0,0,0
339399236889.0327,d4:ca:6e:f1:85:58,0.8199553489685059,-0.12756891548633575,-0.4715210497379303,-0.2984415292739868,-0.0011890889145433903,-0.009220914915204048,0.07745170593261719,0,0,0
339399234079.5876,d4:ca:6e:f1:82:8c,0.7322850227355957,0.28734591603279114,-0.4015972912311554,0.468946248292923,0.01386652048677206,0.009493712335824966,0.1636962890625,0,0,0
339399250749.92096,d4:ca:6e:f1:82:8c,0.7321699857711792,0.2874370515346527,-0.4015296399593353,0.4691278040409088,0.010534165427088737,-0.016913002356886864,0.16279125213623047,0,0,0
339399253559.3661,d4:ca:6e:f1:85:58,0.819890558719635,-0.1276753544807434,-0.47149458527565,-0.2986157238483429,-0.005115764681249857,-0.008026909083127975,0.08047771453857422,0,0,0
339399270229.69946,d4:ca:6e:f1:85:58,0.8198631405830383,-0.12771612405776978,-0.47148314118385315,-0.2986915707588196,-0.003278041025623679,-0.009205940179526806,0.06850814819335938,0,0,0
339399267420.25433,d4:ca:6e:f1:82:8c,0.7318136692047119,0.2877446413040161,-0.40130531787872314,0.46968695521354675,-0.008271320722997189,-0.007231761701405048,0.1659259796142578,0,0,0
339399284090.5877,d4:ca:6e:f1:82:8c,0.7318267822265625,0.2877396047115326,-0.4013034403324127,0.46967124938964844,-0.009780926629900932,0.009571048431098461,0.16684436798095703,0,0,0
339399286900.03284,d4:ca:6e:f1:85:58,0.8199146389961243,-0.1276337206363678,-0.4714994728565216,-0.29855942726135254,-0.009457726962864399,-0.011478172615170479,0.08530712127685547,0,0,0
339399303570.3662,d4:ca:6e:f1:85:58,0.819937527179718,-0.12758396565914154,-0.4715191423892975,-0.2984871566295624,-0.0034653448965400457,-0.006415715906769037,0.05914878845214844,0,0,0
339399300760.9211,d4:ca:6e:f1:82:8c,0.7317169904708862,0.2878328561782837,-0.4012329578399658,0.4698452949523926,0.005504900589585304,0.004270215053111315,0.1637744903564453,0,0,0
339399317431.25446,d4:ca:6e:f1:82:8c,0.7314927577972412,0.2880121171474457,-0.4011014997959137,0.47019675374031067,0.00258895056322217,-0.007071502972394228,0.16870975494384766,0,0,0
339399320240.6996,d4:ca:6e:f1:85:58,0.8198630809783936,-0.12770307064056396,-0.47148871421813965,-0.2986888885498047,-0.008626258932054043,0.000572975433897227,0.08514785766601562,0,0,0
339399336911.03296,d4:ca:6e:f1:85:58,0.8198831677436829,-0.1276686042547226,-0.47151222825050354,-0.2986115515232086,0.002848002128303051,-0.0029384130612015724,0.08604049682617188,0,0,0
339399334101.5878,d4:ca:6e:f1:82:8c,0.7311659455299377,0.28829023241996765,-0.40088677406311035,0.47071748971939087,-0.004907897673547268,-0.0016101873479783535,0.16443824768066406,0,0,0
339399350771.9212,d4:ca:6e:f1:82:8c,0.7312387228012085,0.2882271409034729,-0.40093570947647095,0.4706013798713684,0.010087363421916962,0.012368983589112759,0.16664791107177734,0,0,0
339399353581.36633,d4:ca:6e:f1:85:58,0.8199530243873596,-0.1275571584701538,-0.47154632210731506,-0.29841285943984985,-0.011132285930216312,-0.0033458771649748087,0.08981037139892578,0,0,0
339399370251.6997,d4:ca:6e:f1:85:58,0.8199385404586792,-0.12759053707122803,-0.47152823209762573,-0.2984672486782074,-0.005674100015312433,-0.006418509874492884,0.08306121826171875,0,0,0
339399367442.2546,d4:ca:6e:f1:82:8c,0.7317377328872681,0.2878025770187378,-0.4012382924556732,0.46982696652412415,-0.00021993674454279244,-0.007150402758270502,0.17236995697021484,0,0,0
339399386922.0331,d4:ca:6e:f1:85:58,0.8199355602264404,-0.1275956630706787,-0.47152674198150635,-0.2984754145145416,-0.00949930027127266,0.003997082356363535,0.07379722595214844,0,0,0
339399384112.58795,d4:ca:6e:f1:82:8c,0.7318602204322815,0.28769636154174805,-0.4013024866580963,0.46964648365974426,-0.005557426251471043,-0.012909884564578533,0.1802387237548828,0,0,0
339399403592.36646,d4:ca:6e:f1:85:58,0.8199598789215088,-0.1275564283132553,-0.47153690457344055,-0.2984095811843872,0.0013187264557927847,-0.00015791189798619598,0.0993804931640625,0,0,0
339399420262.6998,d4:ca:6e:f1:85:58,0.8199612498283386,-0.12756311893463135,-0.47153982520103455,-0.2983979880809784,-0.004217242356389761,0.0015156413428485394,0.0854196548461914,0,0,0
339399400782.9213,d4:ca:6e:f1:82:8c,0.7318730354309082,0.28768691420555115,-0.4013148844242096,0.4696216583251953,0.003895160276442766,-0.01322347391396761,0.17990493774414062,0,0,0
339399436933.0332,d4:ca:6e:f1:85:58,0.8199408054351807,-0.127599835395813,-0.4715321362018585,-0.2984508275985718,-0.015351763926446438,-0.0000545371622138191,0.06941795349121094,0,0,0
339399453603.3666,d4:ca:6e:f1:85:58,0.8200392127037048,-0.12743593752384186,-0.47158122062683105,-0.29817283153533936,-0.0012449672212824225,-0.008622235618531704,0.07549381256103516,0,0,0
339399417453.2547,d4:ca:6e:f1:82:8c,0.731530487537384,0.2879725396633148,-0.40111619234085083,0.4701497554779053,0.0022038377355784178,0.003229315159842372,0.16283035278320312,0,0,0
339399470273.69995,d4:ca:6e:f1:85:58,0.82002854347229,-0.12745550274848938,-0.47157442569732666,-0.2982046902179718,-0.002825650852173567,0.0104389488697052,0.08829689025878906,0,0,0
339399486944.0333,d4:ca:6e:f1:85:58,0.8201166391372681,-0.1273135244846344,-0.4716068506240845,-0.29797178506851196,-0.007070161867886782,0.0004668068140745163,0.08606433868408203,0,0,0
339399434123.5881,d4:ca:6e:f1:82:8c,0.7316384315490723,0.2878809869289398,-0.4011760354042053,0.46998676657676697,-0.006328769493848085,-0.0022467521484941244,0.1766366958618164,0,0,0
339399450793.92145,d4:ca:6e:f1:82:8c,0.7316457629203796,0.28787556290626526,-0.4011858105659485,0.4699704051017761,0.002275138394907117,-0.011114628985524178,0.18022441864013672,0,0,0
339399503614.3667,d4:ca:6e:f1:85:58,0.8201349377632141,-0.12727513909339905,-0.4716167747974396,-0.2979218065738678,-0.008574403822422028,0.009045680984854698,0.059906959533691406,0,0,0
339399520197.8,d4:ca:6e:f1:85:58,0.8201394081115723,-0.1272771954536438,-0.4716166853904724,-0.2979086637496948,-0.012045113369822502,-0.009300150908529758,0.07751178741455078,0,0,0
339399467464.2548,d4:ca:6e:f1:82:8c,0.731548547744751,0.28795719146728516,-0.40113648772239685,0.4701138138771057,-0.001056098728440702,0.01261104829609394,0.17084407806396484,0,0,0
339399484134.5882,d4:ca:6e:f1:82:8c,0.7311357259750366,0.2883130609989166,-0.4008902311325073,0.47074756026268005,-0.0022755854297429323,-0.007590500172227621,0.1623058319091797,0,0,0
339399536868.13336,d4:ca:6e:f1:85:58,0.8201770782470703,-0.1272212415933609,-0.47162458300590515,-0.297816663980484,-0.000348680216120556,-0.009013383649289608,0.0838479995727539,0,0,0
339399500804.9216,d4:ca:6e:f1:82:8c,0.7310271263122559,0.28840258717536926,-0.4008237421512604,0.4709179997444153,-0.005383532959967852,0.006706729531288147,0.15928173065185547,0,0,0
339399517475.25494,d4:ca:6e:f1:82:8c,0.7310807704925537,0.2883478105068207,-0.40086716413497925,0.4708312153816223,0.008635870181024075,-0.015404513105750084,0.1643218994140625,0,0,0
339399553538.46674,d4:ca:6e:f1:85:58,0.8204056024551392,-0.12686194479465485,-0.4717272222042084,-0.2971769869327545,-0.0009973148116841912,-0.005678235087543726,0.06956958770751953,0,0,0
339399570208.8001,d4:ca:6e:f1:85:58,0.8204059600830078,-0.12685199081897736,-0.47173717617988586,-0.29716429114341736,-0.008588261902332306,-0.010991696268320084,0.08284568786621094,0,0,0
339399534145.5883,d4:ca:6e:f1:82:8c,0.730456531047821,0.2888815104961395,-0.4004778265953064,0.47180333733558655,0.00653417780995369,-0.004908121190965176,0.16961383819580078,0,0,0
339399586879.1335,d4:ca:6e:f1:85:58,0.8204848170280457,-0.12672637403011322,-0.47177308797836304,-0.29694321751594543,-0.007031717803329229,0.005089837126433849,0.0777292251586914,0,0,0
339399603549.46686,d4:ca:6e:f1:85:58,0.8205420970916748,-0.12664462625980377,-0.4717925786972046,-0.29678869247436523,-0.00497986888512969,-0.005854921881109476,0.07707405090332031,0,0,0
339399550815.9217,d4:ca:6e:f1:82:8c,0.7303491234779358,0.28896886110305786,-0.4004266858100891,0.47195929288864136,0.008660903200507164,0.0009579765028320253,0.17520618438720703,0,0,0
339399567486.25507,d4:ca:6e:f1:82:8c,0.7301782369613647,0.28911250829696655,-0.400319367647171,0.4722267687320709,0.00800243392586708,-0.002049613744020462,0.16459941864013672,0,0,0
339399620219.80023,d4:ca:6e:f1:85:58,0.8205004334449768,-0.12671685218811035,-0.4717714190483093,-0.2969070374965668,-0.0071090529672801495,0.0047987112775444984,0.0820627212524414,0,0,0
339399636890.1336,d4:ca:6e:f1:85:58,0.8205339908599854,-0.1266600787639618,-0.47179514169692993,-0.2968008816242218,-0.005949020851403475,-0.0029936206992715597,0.0861654281616211,0,0,0
339399584156.58844,d4:ca:6e:f1:82:8c,0.7299324870109558,0.2893202006816864,-0.4001760482788086,0.47260090708732605,0.0013012924464419484,0.0036863991990685463,0.17667484283447266,0,0,0
339399600826.9218,d4:ca:6e:f1:82:8c,0.7299776077270508,0.28927990794181824,-0.4002132713794708,0.47252434492111206,-0.002436514711007476,-0.0016656185034662485,0.18302154541015625,0,0,0
339399653560.467,d4:ca:6e:f1:85:58,0.8204455971717834,-0.12678882479667664,-0.4717680811882019,-0.29703283309936523,-0.004405440296977758,-0.005185612477362156,0.0752725601196289,0,0,0
339399670219.8,d4:ca:6e:f1:85:58,0.8204206228256226,-0.12682102620601654,-0.4717619717121124,-0.29709771275520325,-0.0068506719544529915,-0.011512928642332554,0.06184864044189453,0,0,0
339399617497.2552,d4:ca:6e:f1:82:8c,0.7301260828971863,0.2891600728034973,-0.400287002325058,0.4723057746887207,-0.002644158201292157,-0.004449248779565096,0.16825199127197266,0,0,0
339399634167.58856,d4:ca:6e:f1:82:8c,0.7299193739891052,0.2893415093421936,-0.4001536965370178,0.47262701392173767,0.002568610943853855,0.0009054509573616087,0.18561363220214844,0,0,0
339399686890.13336,d4:ca:6e:f1:85:58,0.8204148411750793,-0.1268434375524521,-0.47174984216690063,-0.29712358117103577,-0.001012066612020135,0.00030811261967755854,0.08939933776855469,0,0,0
339399650837.92194,d4:ca:6e:f1:82:8c,0.7298280596733093,0.2894178032875061,-0.40008991956710815,0.4727754592895508,-0.008689513429999352,0.0029367366805672646,0.18030166625976562,0,0,0
339399667508.2553,d4:ca:6e:f1:82:8c,0.7297443747520447,0.2894921898841858,-0.4000296890735626,0.4729098379611969,-0.004096098244190216,-0.0015788954915478826,0.15088748931884766,0,0,0
339399703560.46674,d4:ca:6e:f1:85:58,0.8204470872879028,-0.12680014967918396,-0.4717676639556885,-0.2970246374607086,0.0013799689477309585,-0.00040187628474086523,0.09469127655029297,0,0,0
339399720230.8001,d4:ca:6e:f1:85:58,0.8204502463340759,-0.1268019825220108,-0.47176358103752136,-0.2970212996006012,0.0022002614568918943,-0.00026463932590559125,0.078277587890625,0,0,0
339399684178.5887,d4:ca:6e:f1:82:8c,0.7297560572624207,0.28948473930358887,-0.4000398814678192,0.47288778424263,0.011055397801101208,0.020440706983208656,0.1737995147705078,0,0,0
339399700848.92206,d4:ca:6e:f1:82:8c,0.7297357320785522,0.2895067036151886,-0.4000264108181,0.47291719913482666,0.004012281075119972,-0.007379503920674324,0.16332244873046875,0,0,0
339399736901.1335,d4:ca:6e:f1:85:58,0.8204602599143982,-0.12678658962249756,-0.47177210450172424,-0.2969870865345001,-0.00343628809787333,0.023090118542313576,0.08324813842773438,0,0,0
339399753571.46686,d4:ca:6e:f1:85:58,0.8204106092453003,-0.12686574459075928,-0.4717537462711334,-0.2971195578575134,0.0010831437539309263,-0.0019501505885273218,0.07325363159179688,0,0,0
339399717519.25543,d4:ca:6e:f1:82:8c,0.7294710874557495,0.28972914814949036,-0.3998665511608124,0.47332412004470825,0.007645707577466965,-0.002515861764550209,0.17130374908447266,0,0,0
339399734189.5888,d4:ca:6e:f1:82:8c,0.7293071746826172,0.289866179227829,-0.3997748792171478,0.473570317029953,-0.0015299462247639894,-0.0010196660878136754,0.17059803009033203,0,0,0
339399770241.80023,d4:ca:6e:f1:85:58,0.820401132106781,-0.1268739104270935,-0.4717564880847931,-0.29713794589042664,-0.005289210472255945,-0.004380965605378151,0.07728290557861328,0,0,0
339399786912.1336,d4:ca:6e:f1:85:58,0.8203566074371338,-0.12694045901298523,-0.471738338470459,-0.29726141691207886,-0.011917264200747013,-0.01250297948718071,0.0739593505859375,0,0,0
339399750859.9222,d4:ca:6e:f1:82:8c,0.7295737266540527,0.289638876914978,-0.39994242787361145,0.4731570780277252,-0.005976289510726929,-0.003308885730803013,0.16375732421875,0,0,0
339399767530.25555,d4:ca:6e:f1:82:8c,0.7294637560844421,0.2897334694862366,-0.39987197518348694,0.47332826256752014,-0.0028180512599647045,0.004784965422004461,0.16529083251953125,0,0,0
339399803582.467,d4:ca:6e:f1:85:58,0.8203156590461731,-0.12699778378009796,-0.47172123193740845,-0.2973765730857849,-0.004137224983423948,-0.00106570974458009,0.08197593688964844,0,0,0
339399820252.80035,d4:ca:6e:f1:85:58,0.820347785949707,-0.1269514560699463,-0.4717341959476471,-0.29728710651397705,-0.011266393586993217,-0.0004101462836842984,0.08504104614257812,0,0,0
339399784200.5889,d4:ca:6e:f1:82:8c,0.7297220826148987,0.28951960802078247,-0.40002843737602234,0.4729287624359131,-0.0028468845412135124,0.0008511373307555914,0.1694650650024414,0,0,0
339399800870.9223,d4:ca:6e:f1:82:8c,0.7297840714454651,0.2894688844680786,-0.40006935596466064,0.47282931208610535,-0.001647513941861689,0.0022159074433147907,0.17412376403808594,0,0,0
339399836923.1337,d4:ca:6e:f1:85:58,0.8204036355018616,-0.12686538696289062,-0.4717576503753662,-0.2971327304840088,0.00817029271274805,-0.00928539875894785,0.0730733871459961,0,0,0
339399817541.2557,d4:ca:6e:f1:82:8c,0.7296475768089294,0.2895839810371399,-0.39999017119407654,0.47303637862205505,0.001087390584871173,-0.008445660583674908,0.17147254943847656,0,0,0
339399834211.58905,d4:ca:6e:f1:82:8c,0.7295076847076416,0.28970810770988464,-0.39989590644836426,0.47325584292411804,-0.009361839853227139,0.01539221964776516,0.15727806091308594,0,0,0
339399853593.4671,d4:ca:6e:f1:85:58,0.8205167055130005,-0.12668514251708984,-0.47180256247520447,-0.29682615399360657,-0.018809955567121506,0.0023540384136140347,0.08204078674316406,0,0,0
339399870263.8005,d4:ca:6e:f1:85:58,0.8204720616340637,-0.12676799297332764,-0.4717724323272705,-0.29696178436279297,-0.005038876086473465,0.01050253864377737,0.08214187622070312,0,0,0
339399850881.9224,d4:ca:6e:f1:82:8c,0.7295765280723572,0.2896483838558197,-0.3999430239200592,0.4731464684009552,-0.011765051633119583,-0.0006289654411375523,0.17458724975585938,0,0,0
339399886934.13385,d4:ca:6e:f1:85:58,0.8204727172851562,-0.12675699591636658,-0.47177886962890625,-0.2969544529914856,-0.004025021102279425,-0.00735938735306263,0.07999801635742188,0,0,0
339399903604.4672,d4:ca:6e:f1:85:58,0.8204132914543152,-0.12686362862586975,-0.4717421233654022,-0.2971312999725342,-0.009261035360395908,-0.013773762620985508,0.07750225067138672,0,0,0
339399867552.2558,d4:ca:6e:f1:82:8c,0.7291533946990967,0.2900064289569855,-0.3996824324131012,0.4737991392612457,0.0031028068624436855,0.0003766193403862417,0.17650794982910156,0,0,0
339399884222.5892,d4:ca:6e:f1:82:8c,0.7291009426116943,0.29005342721939087,-0.3996494710445404,0.4738788604736328,-0.00224362313747406,0.010770865716040134,0.16136932373046875,0,0,0
339399920274.8006,d4:ca:6e:f1:85:58,0.8203983306884766,-0.12687702476978302,-0.47173500061035156,-0.29717817902565,0.006999531760811806,0.01478527020663023,0.09729576110839844,0,0,0
339399936945.134,d4:ca:6e:f1:85:58,0.8204837441444397,-0.12673623859882355,-0.47177159786224365,-0.29694435000419617,0.0025811276864260435,0.0067499796859920025,0.07690811157226562,0,0,0
339399900892.92255,d4:ca:6e:f1:82:8c,0.7291799783706665,0.28999409079551697,-0.399690181016922,0.4737592935562134,-0.002509379992261529,0.0020596717949956656,0.16490840911865234,0,0,0
339399917563.2559,d4:ca:6e:f1:82:8c,0.729240894317627,0.2899382710456848,-0.3997306227684021,0.4736655354499817,-0.0006497521535493433,-0.005556979216635227,0.1779031753540039,0,0,0
339399953615.46735,d4:ca:6e:f1:85:58,0.8204305171966553,-0.12681744992733002,-0.4717509150505066,-0.29708966612815857,-0.00842196773737669,0.011779467575252056,0.07424449920654297,0,0,0
339399970228.399,d4:ca:6e:f1:85:58,0.8204633593559265,-0.1267603486776352,-0.4717646539211273,-0.2970016598701477,-0.004890910349786282,0.008037526160478592,0.06637763977050781,0,0,0
339399934233.5893,d4:ca:6e:f1:82:8c,0.7292295694351196,0.28995057940483093,-0.39973077178001404,0.4736752212047577,0.00741168949753046,0.004787871148437262,0.17569255828857422,0,0,0
339399950903.92267,d4:ca:6e:f1:82:8c,0.729242205619812,0.2899405062198639,-0.3997388482093811,0.473655104637146,-0.005771104712039232,-0.006602796260267496,0.17020416259765625,0,0,0
339399986898.73236,d4:ca:6e:f1:85:58,0.8205053806304932,-0.12669488787651062,-0.47178593277931213,-0.29687967896461487,-0.0016593601321801543,-0.0012079757871106267,0.0791025161743164,0,0,0
339399967574.25604,d4:ca:6e:f1:82:8c,0.7293040752410889,0.28989377617836,-0.3997730612754822,0.4735596477985382,-0.0036454962100833654,0.005259483586996794,0.18052959442138672,0,0,0
339399984244.5894,d4:ca:6e:f1:82:8c,0.7290554046630859,0.2901058793067932,-0.3996143937110901,0.47394657135009766,-0.013020076788961887,0.0018408526666462421,0.17629718780517578,0,0,0
339400003569.06573,d4:ca:6e:f1:85:58,0.820517361164093,-0.12666785717010498,-0.47179338335990906,-0.2968464493751526,-0.0027930180076509714,0.004323970060795546,0.07971954345703125,0,0,0
339400020239.3991,d4:ca:6e:f1:85:58,0.8205180168151855,-0.12667405605316162,-0.47178274393081665,-0.29685860872268677,0.0038645390886813402,-0.0021631584968417883,0.08920001983642578,0,0,0
339400000914.9228,d4:ca:6e:f1:82:8c,0.7290226221084595,0.2901265323162079,-0.3996056914329529,0.4739914536476135,-0.011500188149511814,-0.02004397101700306,0.15874481201171875,0,0,0
339400017585.25616,d4:ca:6e:f1:82:8c,0.7290598154067993,0.2900969386100769,-0.3996247351169586,0.4739363491535187,0.003983447793871164,0.001063251169398427,0.1747570037841797,0,0,0
339400036909.7325,d4:ca:6e:f1:85:58,0.8204667568206787,-0.12675362825393677,-0.4717569947242737,-0.297006756067276,-0.007339271251112223,-0.005849557463079691,0.07843780517578125,0,0,0
339400053580.06586,d4:ca:6e:f1:85:58,0.8204634189605713,-0.12676657736301422,-0.4717558026313782,-0.2970127761363983,0.010349990800023079,0.001841746736317873,0.09409523010253906,0,0,0
339400034255.58954,d4:ca:6e:f1:82:8c,0.7289831042289734,0.2901637554168701,-0.3995772898197174,0.4740535020828247,0.00450512720271945,0.003899183589965105,0.1662731170654297,0,0,0
339400070250.39923,d4:ca:6e:f1:85:58,0.8205165863037109,-0.12669426202774048,-0.4717816412448883,-0.2968558967113495,0.006801946088671684,-0.00769119244068861,0.09434223175048828,0,0,0
339400086920.7326,d4:ca:6e:f1:85:58,0.8206064701080322,-0.12665030360221863,-0.4717184901237488,-0.29672616720199585,0.004042455460876226,0.012342608533799648,0.06660938262939453,0,0,0
339400050925.9229,d4:ca:6e:f1:82:8c,0.728977382183075,0.29017364978790283,-0.39957767724990845,0.47405606508255005,-0.004917284939438105,-0.0010239128023386002,0.17612552642822266,0,0,0
339400067596.2563,d4:ca:6e:f1:82:8c,0.728771984577179,0.29034677147865295,-0.3994560241699219,0.47436824440956116,0.002106609521433711,0.007796132005751133,0.18234539031982422,0,0,0
339400103591.066,d4:ca:6e:f1:85:58,0.8205235004425049,-0.1267777383327484,-0.471688449382782,-0.2969488799571991,-0.004887781105935574,0.008787300437688828,0.07396125793457031,0,0,0
339400120214.8,d4:ca:6e:f1:85:58,0.8205438256263733,-0.12674571573734283,-0.47169792652130127,-0.2968914210796356,0.0004939636564813554,0.006302953697741032,0.07579898834228516,0,0,0
339400084266.58966,d4:ca:6e:f1:82:8c,0.728538453578949,0.2904817461967468,-0.39931756258010864,0.47476059198379517,-0.002558999927714467,-0.010339038446545601,0.1735248565673828,0,0,0
339400100936.92303,d4:ca:6e:f1:82:8c,0.7288134098052979,0.2902524769306183,-0.3994799554347992,0.4743419885635376,-0.01299638394266367,0.0021584646310657263,0.16376018524169922,0,0,0
339400136885.13336,d4:ca:6e:f1:85:58,0.8206159472465515,-0.12663666903972626,-0.47172409296035767,-0.29669705033302307,0.000849796284455806,0.007821165025234222,0.06799793243408203,0,0,0
339400117607.2564,d4:ca:6e:f1:82:8c,0.7291116714477539,0.29000550508499146,-0.3996625542640686,0.4738806188106537,-0.004057207144796848,-0.006181474309414625,0.16217041015625,0,0,0
339400134277.5898,d4:ca:6e:f1:82:8c,0.7290684580802917,0.2900422215461731,-0.3996330499649048,0.4739493727684021,-0.007810213137418032,-0.012519408017396927,0.16842937469482422,0,0,0
339400153555.46674,d4:ca:6e:f1:85:58,0.8205993175506592,-0.12666693329811096,-0.47170892357826233,-0.2967541515827179,-0.004047819413244724,-0.0024443375878036022,0.08681201934814453,0,0,0
339400170225.8001,d4:ca:6e:f1:85:58,0.8206135034561157,-0.12665009498596191,-0.4717145264148712,-0.296713262796402,-0.001889131497591734,-0.0028990746941417456,0.08648872375488281,0,0,0
339400150947.92316,d4:ca:6e:f1:82:8c,0.7290719151496887,0.29003602266311646,-0.3996409475803375,0.4739413559436798,0.0038162602577358484,-0.0027103181928396225,0.1665048599243164,0,0,0
339400167618.25653,d4:ca:6e:f1:82:8c,0.7287511229515076,0.2902979850769043,-0.3994452953338623,0.4744390845298767,-0.0017286492511630058,0.015507999807596207,0.16217041015625,0,0,0
339400186896.1335,d4:ca:6e:f1:85:58,0.8206309080123901,-0.12662966549396515,-0.4717143177986145,-0.2966744303703308,0.00417477497830987,0.0008320269989781082,0.08063602447509766,0,0,0
339400203566.46686,d4:ca:6e:f1:85:58,0.8206654787063599,-0.12656725943088531,-0.4717388153076172,-0.29656586050987244,0.005885543301701546,-0.0054720439948141575,0.08189105987548828,0,0,0
339400184288.5899,d4:ca:6e:f1:82:8c,0.7286324501037598,0.29039832949638367,-0.3993724286556244,0.4746212661266327,0.005641466937959194,-0.006974274758249521,0.17161846160888672,0,0,0
339400200958.9233,d4:ca:6e:f1:82:8c,0.7285771369934082,0.2904524505138397,-0.3993365168571472,0.4747033417224884,-0.0014266831567510962,0.009523440152406693,0.16438865661621094,0,0,0
339400220236.80023,d4:ca:6e:f1:85:58,0.820675790309906,-0.12656328082084656,-0.47173622250556946,-0.296543151140213,0.001401873305439949,-0.0074240947142243385,0.0780019760131836,0,0,0
339400236907.1336,d4:ca:6e:f1:85:58,0.8207198977470398,-0.12649647891521454,-0.4717532992362976,-0.2964226007461548,0.010170286521315575,-0.0007383750635199249,0.0766000747680664,0,0,0
339400217629.25665,d4:ca:6e:f1:82:8c,0.7288104891777039,0.2902557849884033,-0.3994898200035095,0.474336177110672,0.0034376292023807764,-0.005600787699222565,0.1627664566040039,0,0,0
339400234299.59,d4:ca:6e:f1:82:8c,0.7286319136619568,0.2903997004032135,-0.39937666058540344,0.47461771965026855,0.007035740651190281,-0.00019132709712721407,0.1785411834716797,0,0,0
339400253577.467,d4:ca:6e:f1:85:58,0.8207069039344788,-0.12651421129703522,-0.47174888849258423,-0.29645803570747375,-0.000305765715893358,0.0014897139044478536,0.07747840881347656,0,0,0
339400270247.80035,d4:ca:6e:f1:85:58,0.8207255005836487,-0.12648507952690125,-0.4717589318752289,-0.29640281200408936,-0.007528363261371851,-0.005097995046526194,0.08870410919189453,0,0,0
339400250969.9234,d4:ca:6e:f1:82:8c,0.7286274433135986,0.29040777683258057,-0.3993724286556244,0.4746231436729431,0.002221048343926668,0.010720128193497658,0.16086578369140625,0,0,0
339400286918.1337,d4:ca:6e:f1:85:58,0.8207184672355652,-0.12650972604751587,-0.4717566668987274,-0.2964153289794922,0.013623114675283432,0.00016316445544362068,0.07157230377197266,0,0,0
339400267640.2568,d4:ca:6e:f1:82:8c,0.7283821105957031,0.29061058163642883,-0.3992319703102112,0.4749937653541565,0.012339926324784756,0.006279596593230963,0.16701412200927734,0,0,0
339400284310.59015,d4:ca:6e:f1:82:8c,0.7282874584197998,0.29069212079048157,-0.3991747200489044,0.47513696551322937,0.003067044774070382,0.0019105887040495872,0.16134071350097656,0,0,0
339400303588.4671,d4:ca:6e:f1:85:58,0.8207337260246277,-0.12647344172000885,-0.4717696011066437,-0.2963680922985077,-0.0012056288542225957,0.007013501133769751,0.07416057586669922,0,0,0
339400320258.8005,d4:ca:6e:f1:85:58,0.8207391500473022,-0.12645576894283295,-0.4717804491519928,-0.29634329676628113,-0.002941877581179142,-0.010875470004975796,0.0799398422241211,0,0,0
339400300980.9235,d4:ca:6e:f1:82:8c,0.7282711267471313,0.2907123267650604,-0.3991697430610657,0.4751538336277008,-0.002349568298086524,-0.009160902351140976,0.16483116149902344,0,0,0
339400317651.2569,d4:ca:6e:f1:82:8c,0.7283706068992615,0.2906299829483032,-0.3992282450199127,0.4750025272369385,-0.004144824109971523,0.011519410647451878,0.1686859130859375,0,0,0
339400336929.13385,d4:ca:6e:f1:85:58,0.8207345008850098,-0.12647080421447754,-0.4717780649662018,-0.2963537573814392,0.007181918248534203,0.007448345888406038,0.07474994659423828,0,0,0
339400353599.4672,d4:ca:6e:f1:85:58,0.8207043409347534,-0.12651734054088593,-0.47176307439804077,-0.29644152522087097,-0.0019137179479002953,-0.0017536826198920608,0.07441902160644531,0,0,0
339400334321.5903,d4:ca:6e:f1:82:8c,0.7285032272338867,0.29051700234413147,-0.39930763840675354,0.47480151057243347,0.0017362486105412245,-0.005063686054199934,0.17511463165283203,0,0,0
339400350991.92365,d4:ca:6e:f1:82:8c,0.7284894585609436,0.29053252935409546,-0.39930400252342224,0.4748161733150482,-0.002165393438190222,0.0015815777005627751,0.16495895385742188,0,0,0
339400370269.8006,d4:ca:6e:f1:85:58,0.8207224607467651,-0.12649039924144745,-0.4717719852924347,-0.2963882088661194,-0.014704917557537556,0.005404990166425705,0.08588218688964844,0,0,0
339400386940.134,d4:ca:6e:f1:85:58,0.8206144571304321,-0.12666107714176178,-0.47172418236732483,-0.2966904044151306,0.0054519278928637505,-0.005741936154663563,0.08114051818847656,0,0,0
339400367662.257,d4:ca:6e:f1:82:8c,0.7285393476486206,0.2904858887195587,-0.3993411958217621,0.47473689913749695,0.017062531784176826,0.01330371480435133,0.16682910919189453,0,0,0
339400384332.5904,d4:ca:6e:f1:82:8c,0.7291014194488525,0.29000645875930786,-0.39968106150627136,0.4738802909851074,0.003228421090170741,0.002808887278661132,0.16705799102783203,0,0,0
339400403610.46735,d4:ca:6e:f1:85:58,0.820506751537323,-0.12683555483818054,-0.4716752767562866,-0.2969915270805359,-0.003945897798985243,-0.0019569676369428635,0.08441448211669922,0,0,0
339400420280.8007,d4:ca:6e:f1:85:58,0.8205238580703735,-0.1268032044172287,-0.47169229388237,-0.2969309389591217,-0.0030853727366775274,0.004738362971693277,0.06546974182128906,0,0,0
339400401002.92377,d4:ca:6e:f1:82:8c,0.7288697957992554,0.2902057468891144,-0.399537056684494,0.4742359519004822,0.00391170009970665,0.0068678827956318855,0.16285037994384766,0,0,0
339400417673.25714,d4:ca:6e:f1:82:8c,0.7285287380218506,0.29048824310302734,-0.3993383049964905,0.4747540354728699,0.012824726291000843,0.010902291163802147,0.1638317108154297,0,0,0
339400436951.1341,d4:ca:6e:f1:85:58,0.8205083608627319,-0.1268267184495926,-0.47168558835983276,-0.29697445034980774,0.003152873832732439,-0.00754970870912075,0.07355308532714844,0,0,0
339400434343.5905,d4:ca:6e:f1:82:8c,0.7287130951881409,0.29033294320106506,-0.39945581555366516,0.47446733713150024,0.00012539076851680875,0.0091188820078969,0.17129802703857422,0,0,0
339400451013.9239,d4:ca:6e:f1:82:8c,0.7286847233772278,0.2903483211994171,-0.3994354009628296,0.47451862692832947,0.003750323783606291,0.010446995496749878,0.17096328735351562,0,0,0
339400453621.46747,d4:ca:6e:f1:85:58,0.8204724192619324,-0.12688937783241272,-0.4716629981994629,-0.2970828413963318,0.004621353931725025,-0.010030814446508884,0.06795787811279297,0,0,0
339400470291.80084,d4:ca:6e:f1:85:58,0.8204784393310547,-0.12687909603118896,-0.47165414690971375,-0.297084778547287,-0.011411677114665508,-0.003025918500497937,0.0699605941772461,0,0,0
339400467684.25726,d4:ca:6e:f1:82:8c,0.7285700440406799,0.2904388904571533,-0.3993642032146454,0.4746992290019989,0.003434500191360712,0.006934266071766615,0.1714639663696289,0,0,0
339400486962.1342,d4:ca:6e:f1:85:58,0.8204761743545532,-0.12688374519348145,-0.47164973616600037,-0.29709598422050476,-0.0025382130406796932,-0.0025370954535901546,0.0782022476196289,0,0,0
339400503632.4676,d4:ca:6e:f1:85:58,0.8205127716064453,-0.12682625651359558,-0.4716644883155823,-0.296996146440506,-0.012699112296104431,-0.011662347242236137,0.07789325714111328,0,0,0
339400520302.80096,d4:ca:6e:f1:85:58,0.820489764213562,-0.12685704231262207,-0.47166359424591064,-0.29704785346984863,0.008054065518081188,-0.0002484346623532474,0.09392547607421875,0,0,0
339400536973.13434,d4:ca:6e:f1:85:58,0.82050621509552,-0.12682704627513885,-0.4716692864894867,-0.29700616002082825,-0.0025145206600427628,0.008782271295785904,0.09160137176513672,0,0,0
339400484354.59064,d4:ca:6e:f1:82:8c,0.7286784648895264,0.2903624475002289,-0.39941665530204773,0.4745352268218994,0.00867498479783535,-0.007567478343844414,0.16781330108642578,0,0,0
339400501024.924,d4:ca:6e:f1:82:8c,0.7286950945854187,0.29034262895584106,-0.39943164587020874,0.47450926899909973,-0.005548709072172642,0.0018162663327530026,0.16907310485839844,0,0,0
339400553643.4677,d4:ca:6e:f1:85:58,0.8204540610313416,-0.1269020289182663,-0.47165369987487793,-0.2971430718898773,0.006883752066642046,0.006330557633191347,0.088470458984375,0,0,0
339400570257.3,d4:ca:6e:f1:85:58,0.8206080198287964,-0.12665824592113495,-0.47172242403030396,-0.2967124283313751,-0.0035712900571525097,0.00515219708904624,0.07283306121826172,0,0,0
339400517695.2574,d4:ca:6e:f1:82:8c,0.7288670539855957,0.2902021110057831,-0.3995301127433777,0.47424808144569397,0.005723719950765371,0.0037655227351933718,0.17417240142822266,0,0,0
339400586927.63336,d4:ca:6e:f1:85:58,0.8206018805503845,-0.12666884064674377,-0.4717237055301666,-0.29672250151634216,0.0037031625397503376,0.005079443566501141,0.0877523422241211,0,0,0
339400534365.59076,d4:ca:6e:f1:82:8c,0.7287959456443787,0.290254145860672,-0.39948976039886475,0.47435954213142395,0.0015851538628339767,-0.008699795231223106,0.16465473175048828,0,0,0
339400551035.92413,d4:ca:6e:f1:82:8c,0.7287465333938599,0.29029569029808044,-0.39945366978645325,0.47444042563438416,-0.018788276240229607,0.004711653105914593,0.18531036376953125,0,0,0
339400603597.96674,d4:ca:6e:f1:85:58,0.8205464482307434,-0.12675067782402039,-0.47170090675354004,-0.29687705636024475,0.003660248126834631,-0.00046468342770822346,0.08042049407958984,0,0,0
339400620268.3001,d4:ca:6e:f1:85:58,0.820521891117096,-0.12678708136081696,-0.4716963469982147,-0.29693642258644104,0.0010205601574853063,0.000024809938622638583,0.07954883575439453,0,0,0
339400567706.2575,d4:ca:6e:f1:82:8c,0.7289680242538452,0.29010412096977234,-0.3995942175388336,0.474098801612854,-0.003688187338411808,0.008281154558062553,0.1666727066040039,0,0,0
339400584376.5909,d4:ca:6e:f1:82:8c,0.7289236783981323,0.2901459336280823,-0.39955469965934753,0.4741747975349426,0.004271556157618761,-0.0153622692450881,0.1855020523071289,0,0,0
339400636938.6335,d4:ca:6e:f1:85:58,0.8204796314239502,-0.12686428427696228,-0.4716699421405792,-0.2970622479915619,-0.008652186952531338,0.0039039889816194773,0.09634876251220703,0,0,0
339400653608.96686,d4:ca:6e:f1:85:58,0.820513904094696,-0.12682412564754486,-0.4716790020465851,-0.29697033762931824,-0.00485827773809433,-0.0028483374044299126,0.07072925567626953,0,0,0
339400601046.92426,d4:ca:6e:f1:82:8c,0.7288588881492615,0.2902079224586487,-0.3995049297809601,0.47427845001220703,-0.002343980362638831,0.008626929484307766,0.1743173599243164,0,0,0
339400617717.2576,d4:ca:6e:f1:82:8c,0.7289482355117798,0.2901259958744049,-0.3995635509490967,0.4741416573524475,0.013467102311551571,0.006671414710581303,0.1476421356201172,0,0,0
339400670279.30023,d4:ca:6e:f1:85:58,0.8205525279045105,-0.12677328288555145,-0.47169259190559387,-0.29686400294303894,-0.013700896874070168,-0.010618429630994797,0.08997631072998047,0,0,0
339400686949.6336,d4:ca:6e:f1:85:58,0.8205658793449402,-0.12676598131656647,-0.4716838300228119,-0.29684409499168396,-0.002726858016103506,-0.0004388676898088306,0.09970664978027344,0,0,0
339400634387.591,d4:ca:6e:f1:82:8c,0.7293720245361328,0.2897665202617645,-0.39981645345687866,0.47349631786346436,0.008994384668767452,0.0024742884561419487,0.1735067367553711,0,0,0
339400651057.9244,d4:ca:6e:f1:82:8c,0.7293718457221985,0.28976118564605713,-0.3998161852359772,0.47349998354911804,0.003943662624806166,-0.003422654001042247,0.17711257934570312,0,0,0
339400703619.967,d4:ca:6e:f1:85:58,0.8205644488334656,-0.1267683207988739,-0.47169017791748047,-0.2968371510505676,-0.012188608758151531,0.005283399019390345,0.0865468978881836,0,0,0
339400720221.7,d4:ca:6e:f1:85:58,0.8206139206886292,-0.1266970932483673,-0.4717073142528534,-0.29670366644859314,-0.0013379486044868827,-0.0039267875254154205,0.0852499008178711,0,0,0
339400667728.25775,d4:ca:6e:f1:82:8c,0.7292798161506653,0.2898368537425995,-0.39976003766059875,0.47364288568496704,0.007726619485765696,0.006618889048695564,0.16548728942871094,0,0,0
339400684398.5911,d4:ca:6e:f1:82:8c,0.7292402386665344,0.2898736000061035,-0.39973509311676025,0.4737023711204529,-0.011606804095208645,-0.000027939118808717467,0.17005443572998047,0,0,0
339400736892.0334,d4:ca:6e:f1:85:58,0.8206439018249512,-0.12665675580501556,-0.4717182219028473,-0.29662033915519714,-0.0027644082438200712,-0.009019977413117886,0.07354545593261719,0,0,0
339400701068.9245,d4:ca:6e:f1:82:8c,0.7292372584342957,0.2898736894130707,-0.39973267912864685,0.47370898723602295,0.0005820277146995068,0.008823397569358349,0.163055419921875,0,0,0
339400717739.2579,d4:ca:6e:f1:82:8c,0.7294317483901978,0.2897171080112457,-0.3998439908027649,0.4734112024307251,-0.0005838158540427685,-0.003349565202370286,0.1746807098388672,0,0,0
339400753562.36676,d4:ca:6e:f1:85:58,0.8205764293670654,-0.1267624795436859,-0.471689373254776,-0.29680782556533813,0.003157790983095765,-0.0007635202491655946,0.08815479278564453,0,0,0
339400770232.70013,d4:ca:6e:f1:85:58,0.8206254839897156,-0.12668152153491974,-0.4717071056365967,-0.29667866230010986,-0.004717464558780193,-0.003007143270224333,0.09100723266601562,0,0,0
339400734409.59125,d4:ca:6e:f1:82:8c,0.7296462655067444,0.2895345389842987,-0.39997708797454834,0.47307974100112915,-0.0014110372867435217,0.012166480533778667,0.17841434478759766,0,0,0
339400786903.0335,d4:ca:6e:f1:85:58,0.8206256031990051,-0.12668925523757935,-0.4717107117176056,-0.29666879773139954,-0.003189976792782545,-0.006601343397051096,0.08466720581054688,0,0,0
339400803573.3669,d4:ca:6e:f1:85:58,0.8206101059913635,-0.12672258913516998,-0.4716971218585968,-0.29671919345855713,0.004573075100779533,-0.00437146658077836,0.08356475830078125,0,0,0
339400751079.9246,d4:ca:6e:f1:82:8c,0.7295729517936707,0.2895979881286621,-0.3999330997467041,0.47319111227989197,-0.0023348163813352585,-0.005951032508164644,0.1599559783935547,0,0,0
339400767750.258,d4:ca:6e:f1:82:8c,0.729610025882721,0.2895616590976715,-0.3999546766281128,0.4731380343437195,0.007404984440654516,-0.002622477477416396,0.16578102111816406,0,0,0
339400820243.70026,d4:ca:6e:f1:85:58,0.8205829858779907,-0.12677982449531555,-0.4716840982437134,-0.29679054021835327,0.002064812695607543,0.0027311048470437527,0.07863712310791016,0,0,0
339400836914.0336,d4:ca:6e:f1:85:58,0.8205759525299072,-0.12680739164352417,-0.4716736972332001,-0.29681459069252014,-0.006819380447268486,0.0037779277190566063,0.08308029174804688,0,0,0
339400784420.5914,d4:ca:6e:f1:82:8c,0.729532778263092,0.28962960839271545,-0.3999045789241791,0.4732578992843628,-0.004309553187340498,0.0052167922258377075,0.1533641815185547,0,0,0
339400801090.92474,d4:ca:6e:f1:82:8c,0.7295102477073669,0.289639949798584,-0.39989593625068665,0.47329360246658325,0.001951715094037354,-0.009279140271246433,0.17422103881835938,0,0,0
339400853584.367,d4:ca:6e:f1:85:58,0.8206374645233154,-0.12671779096126556,-0.4716949164867401,-0.2966489791870117,0.013515828177332878,0.0012099874438717961,0.09154033660888672,0,0,0
339400870248.499,d4:ca:6e:f1:85:58,0.8206570148468018,-0.12667840719223022,-0.47170811891555786,-0.2965906262397766,-0.0012369207106530666,-0.014437037520110607,0.08133792877197266,0,0,0
339400817761.2581,d4:ca:6e:f1:82:8c,0.7290517687797546,0.290027379989624,-0.3996172845363617,0.4739975929260254,-0.0016714298399165273,0.001426012604497373,0.17316246032714844,0,0,0
339400834431.5915,d4:ca:6e:f1:82:8c,0.7290347218513489,0.2900507152080536,-0.3996010422706604,0.47402316331863403,0.0027601614128798246,-0.005627609323710203,0.18366718292236328,0,0,0
339400886918.8324,d4:ca:6e:f1:85:58,0.820627748966217,-0.12673452496528625,-0.47169432044029236,-0.29667001962661743,0.0025972204748541117,0.0031637141946703196,0.08188247680664062,0,0,0
339400851101.92487,d4:ca:6e:f1:82:8c,0.7289366722106934,0.29013216495513916,-0.3995518386363983,0.4741656184196472,-0.0006329886964522302,0.0014807733241468668,0.1780261993408203,0,0,0
339400867772.25824,d4:ca:6e:f1:82:8c,0.728892982006073,0.29016411304473877,-0.3995238244533539,0.4742368459701538,0.0033459889236837626,-0.015028564259409904,0.16016769409179688,0,0,0
339400903589.1658,d4:ca:6e:f1:85:58,0.8207213282585144,-0.12657326459884644,-0.47174566984176636,-0.29639795422554016,-0.008008021861314774,0.0038144721183925867,0.08760547637939453,0,0,0
339400920259.49915,d4:ca:6e:f1:85:58,0.8207234740257263,-0.12657271325588226,-0.4717467129230499,-0.2963906526565552,0.006929795723408461,0.0013523651286959648,0.08304119110107422,0,0,0
339400884442.5916,d4:ca:6e:f1:82:8c,0.728774905204773,0.29026806354522705,-0.39944395422935486,0.474421888589859,0.0035337398294359446,0.01017073355615139,0.16146564483642578,0,0,0
339400901112.925,d4:ca:6e:f1:82:8c,0.7287884950637817,0.2902534306049347,-0.39946383237838745,0.47439321875572205,0.0036365557461977005,0.0016886403318494558,0.18360614776611328,0,0,0
339400936929.8325,d4:ca:6e:f1:85:58,0.8207080960273743,-0.1265992522239685,-0.47173985838890076,-0.296432763338089,-0.0041698575951159,-0.0045007686130702496,0.08324718475341797,0,0,0
339400953600.1659,d4:ca:6e:f1:85:58,0.8207481503486633,-0.12653888761997223,-0.4717573821544647,-0.29631954431533813,0.008310211822390556,-0.004450701642781496,0.07417964935302734,0,0,0
339400917783.25836,d4:ca:6e:f1:82:8c,0.7288105487823486,0.2902366518974304,-0.39947471022605896,0.4743604063987732,-0.005876155570149422,0.008385535329580307,0.16765785217285156,0,0,0
339400934453.59174,d4:ca:6e:f1:82:8c,0.7290723323822021,0.29001373052597046,-0.39964208006858826,0.4739534556865692,-0.01266983151435852,-0.010889998637139797,0.165283203125,0,0,0
339400970270.49927,d4:ca:6e:f1:85:58,0.8206606507301331,-0.1266690492630005,-0.47172096371650696,-0.29656434059143066,-0.004667844623327255,0.011049139313399792,0.07348251342773438,0,0,0
339400986940.83264,d4:ca:6e:f1:85:58,0.8205735087394714,-0.1268131583929062,-0.4716706871986389,-0.29682376980781555,0.0004684831656049937,0.008251204155385494,0.08678436279296875,0,0,0
339400951123.9251,d4:ca:6e:f1:82:8c,0.7290434241294861,0.29002898931503296,-0.39963629841804504,0.4739934206008911,-0.0028453199192881584,-0.0042527811601758,0.1755237579345703,0,0,0
339400967794.2585,d4:ca:6e:f1:82:8c,0.7287386655807495,0.2902844548225403,-0.3994521498680115,0.4744607210159302,0.011955931782722473,0.007816024124622345,0.1800518035888672,0,0,0
339401003611.166,d4:ca:6e:f1:85:58,0.8205824494361877,-0.1267988234758377,-0.4716731905937195,-0.29680106043815613,0.01306433230638504,-0.0008813116000965238,0.06288814544677734,0,0,0
339401020281.4994,d4:ca:6e:f1:85:58,0.8206015229225159,-0.12677530944347382,-0.4716762602329254,-0.2967536747455597,0.005418848246335983,-0.005952820647507906,0.08541584014892578,0,0,0
339400984464.59186,d4:ca:6e:f1:82:8c,0.7288953065872192,0.29014989733695984,-0.3995531499385834,0.4742172062397003,0.01012334879487753,-0.0012805056758224964,0.18204212188720703,0,0,0
339401001134.92523,d4:ca:6e:f1:82:8c,0.7289286851882935,0.2901104688644409,-0.39957723021507263,0.4741697907447815,-0.005953491199761629,0.009196664206683636,0.16939830780029297,0,0,0
339401036951.83276,d4:ca:6e:f1:85:58,0.8205783367156982,-0.12680906057357788,-0.4716685712337494,-0.29681557416915894,0.0018958369037136436,-0.008970245718955994,0.08150959014892578,0,0,0
339401017805.2586,d4:ca:6e:f1:82:8c,0.7289635539054871,0.29007822275161743,-0.3995923101902008,0.47412312030792236,-0.008017409592866898,0.0007579324301332235,0.16605091094970703,0,0,0
339401034475.592,d4:ca:6e:f1:82:8c,0.7289976477622986,0.2900545597076416,-0.3996105492115021,0.47406983375549316,0.0009273552568629384,-0.00977288093417883,0.1655569076538086,0,0,0
339401053622.16614,d4:ca:6e:f1:85:58,0.8206289410591125,-0.12673622369766235,-0.4716828763484955,-0.29668447375297546,-0.002923549385741353,0.003648960730060935,0.08866310119628906,0,0,0
339401070292.4995,d4:ca:6e:f1:85:58,0.8205884695053101,-0.12679623067378998,-0.47167083621025085,-0.2967895567417145,0.011026788502931595,-0.008473040536046028,0.08788681030273438,0,0,0
